File: Blender/XRD/file1
10.01  1.87197e-07
10.09  2.11111e-07
10.17  2.39925e-07
10.25  2.75081e-07
10.33  3.18598e-07
10.41  3.7341e-07
10.49  4.44191e-07
10.57  5.50939e-07
10.65  8.2008e-07
10.73  2.83052e-06
10.81  1.11236e-06
10.89  1.47039e-06
10.97  2.09604e-06
11.05  3.31217e-06
11.13  6.93038e-06
11.21  5.44958e-05
11.29  0.000596435
11.37  0.00799001
11.45  0.000192101
11.53  4.24409e-05
11.61  8.38482e-06
11.69  3.9467e-06
11.77  2.44245e-06
11.85  1.66259e-06
11.93  1.20529e-06
12.01  9.14012e-07
12.09  7.17011e-07
12.17  5.77543e-07
12.25  4.75182e-07
12.33  3.97835e-07
12.41  3.37965e-07
12.49  2.90675e-07
12.57  2.52674e-07
12.65  2.21681e-07
12.73  1.96076e-07
12.81  1.74683e-07
12.89  1.56634e-07
12.97  1.41341e-07
13.05  1.28179e-07
13.13  1.16836e-07
13.21  1.07032e-07
13.29  9.85743e-08
13.37  9.13971e-08
13.45  8.59373e-08
13.53  9.02528e-08
13.61  2.188e-07
13.69  3.05134e-06
13.77  1.53325e-07
13.85  7.71144e-08
13.93  5.87258e-08
14.01  5.33909e-08
14.09  4.96833e-08
14.17  4.65869e-08
14.25  4.38794e-08
14.33  4.14578e-08
14.41  3.92695e-08
14.49  3.72805e-08
14.57  3.54704e-08
14.65  3.38215e-08
14.73  3.23305e-08
14.81  3.10052e-08
14.89  2.98824e-08
14.97  2.91319e-08
15.05  3.09569e-08
15.13  5.90302e-08
15.21  8.70142e-07
15.29  6.75717e-08
15.37  3.15397e-08
15.45  2.70231e-08
15.53  3.92635e-08
15.61  1.92987e-07
15.69  5.62673e-06
15.77  8.54956e-08
15.85  4.28906e-08
15.93  2.76156e-08
16.01  2.53894e-08
16.09  2.42556e-08
16.17  2.35513e-08
16.25  2.30892e-08
16.33  2.28087e-08
16.41  2.27059e-08
16.49  2.28216e-08
16.57  2.32621e-08
16.65  2.42709e-08
16.73  2.64667e-08
16.81  3.28047e-08
16.89  8.07048e-08
16.97  6.64762e-07
17.05  2.40009e-05
17.13  1.80268e-07
17.21  7.60109e-08
17.29  3.06962e-08
17.37  2.50531e-08
17.45  2.25117e-08
17.53  2.11291e-08
17.61  2.02937e-08
17.69  1.97645e-08
17.77  1.94129e-08
17.85  1.91841e-08
17.93  1.90453e-08
18.01  1.89789e-08
18.09  1.89763e-08
18.17  1.90356e-08
18.25  1.91614e-08
18.33  1.93658e-08
18.41  1.96727e-08
18.49  2.01259e-08
18.57  2.08099e-08
18.65  2.18984e-08
18.73  2.37971e-08
18.81  2.78038e-08
18.89  5.10801e-08
18.97  1.56234e-07
19.05  6.00184e-06
19.13  4.23058e-07
19.21  8.25425e-08
19.29  3.5668e-08
19.37  2.74244e-08
19.45  2.48427e-08
19.53  2.3678e-08
19.61  2.31478e-08
19.69  2.29534e-08
19.77  2.2961e-08
19.85  2.31047e-08
19.93  2.3351e-08
20.01  2.36848e-08
20.09  2.4115e-08
20.17  2.46404e-08
20.25  2.53285e-08
20.33  2.64424e-08
20.41  3.11056e-08
20.49  7.10464e-08
20.57  2.06212e-06
20.65  4.06816e-08
20.73  3.31255e-08
20.81  3.01721e-08
20.89  3.0506e-08
20.97  3.11824e-08
21.05  3.20412e-08
21.13  3.30436e-08
21.21  3.41954e-08
21.29  3.55463e-08
21.37  3.72715e-08
21.45  3.90304e-08
21.53  5.32044e-08
21.61  1.30628e-06
21.69  6.24666e-08
21.77  4.73015e-08
21.85  4.49932e-08
21.93  4.68167e-08
22.01  4.93824e-08
22.09  5.25337e-08
22.17  5.63507e-08
22.25  6.10477e-08
22.33  6.70178e-08
22.41  7.49796e-08
22.49  8.63421e-08
22.57  1.04191e-07
22.65  1.3657e-07
22.73  2.45085e-07
22.81  6.98731e-07
22.89  1.15512e-05
22.97  0.000113392
23.05  1.02976e-06
23.13  4.59901e-07
23.21  2.02189e-07
23.29  1.67144e-07
23.37  1.54467e-07
23.45  1.51272e-07
23.53  1.53171e-07
23.61  1.58379e-07
23.69  1.66139e-07
23.77  1.7618e-07
23.85  1.88557e-07
23.93  2.03704e-07
24.01  2.24668e-07
24.09  2.58682e-07
24.17  1.17558e-06
24.25  8.15074e-07
24.33  3.44724e-07
24.41  3.86605e-07
24.49  1.75434e-06
24.57  5.51813e-07
24.65  5.4267e-07
24.73  6.17428e-07
24.81  7.28523e-07
24.89  8.72355e-07
24.97  1.06645e-06
25.05  1.33647e-06
25.13  1.72755e-06
25.21  2.3264e-06
25.29  3.31002e-06
25.37  5.73023e-06
25.45  8.92257e-06
25.53  3.41068e-05
25.61  9.62751e-05
25.69  0.00841929
25.77  0.000187843
25.85  4.53535e-05
25.93  1.17783e-05
26.01  6.20657e-06
26.09  3.87732e-06
26.17  2.65946e-06
26.25  1.94248e-06
26.33  1.48515e-06
26.41  1.17612e-06
26.49  9.58376e-07
26.57  8.00917e-07
26.65  6.93718e-07
26.73  6.47868e-07
26.81  2.82011e-06
26.89  1.08046e-06
26.97  4.59512e-07
27.05  3.76681e-07
27.13  3.33372e-07
27.21  3.03504e-07
27.29  2.80038e-07
27.37  2.61888e-07
27.45  2.51142e-07
27.53  2.68261e-07
27.61  7.32194e-07
27.69  7.68235e-06
27.77  2.65694e-07
27.85  2.12617e-07
27.93  1.86544e-07
28.01  1.78106e-07
28.09  1.72629e-07
28.17  1.69145e-07
28.25  1.67552e-07
28.33  1.68388e-07
28.41  1.73387e-07
28.49  1.88987e-07
28.57  2.88862e-07
28.65  7.81447e-07
28.73  4.36722e-05
28.81  5.06089e-07
28.89  2.75342e-07
28.97  1.8571e-07
29.05  1.72668e-07
29.13  1.68196e-07
29.21  1.67339e-07
29.29  1.68499e-07
29.37  1.71058e-07
29.45  1.74793e-07
29.53  1.79705e-07
29.61  1.86067e-07
29.69  1.9446e-07
29.77  2.06952e-07
29.85  2.51681e-07
29.93  3.46691e-07
30.01  1.23071e-05
30.09  5.38493e-07
30.17  3.09048e-07
30.25  2.69513e-07
30.33  2.7421e-07
30.41  2.88661e-07
30.49  3.05208e-07
30.57  3.27584e-07
30.65  3.68193e-07
30.73  7.19863e-07
30.81  1.86445e-06
30.89  4.58446e-07
30.97  4.72288e-07
31.05  5.04366e-07
31.13  5.50725e-07
31.21  6.06259e-07
31.29  6.72446e-07
31.37  7.51893e-07
31.45  8.48698e-07
31.53  9.7169e-07
31.61  1.15546e-06
31.69  1.94481e-06
31.77  9.59077e-06
31.85  1.87573e-06
31.93  2.20062e-06
32.01  2.70538e-06
32.09  3.46014e-06
32.17  4.59604e-06
32.25  6.42049e-06
32.33  9.6301e-06
32.41  1.61333e-05
32.49  4.23788e-05
32.57  0.000124683
32.65  0.00384305
32.73  0.00205028
32.81  0.000111955
32.89  3.98843e-05
32.97  1.67471e-05
33.05  9.42778e-06
33.13  6.32666e-06
33.21  4.58343e-06
33.29  3.50755e-06
33.37  2.80161e-06
33.45  2.32665e-06
33.53  2.02407e-06
33.61  4.29928e-06
33.69  1.78553e-06
33.77  2.32791e-06
33.85  6.46522e-05
33.93  1.94146e-06
34.01  1.58777e-06
34.09  1.54944e-06
34.17  1.72516e-06
34.25  2.06958e-06
34.33  2.71023e-06
34.41  3.97436e-06
34.49  9.29692e-06
34.57  2.26819e-05
34.65  9.6787e-05
34.73  0.00501161
34.81  8.16189e-05
34.89  2.26681e-05
34.97  6.83426e-06
35.05  3.82439e-06
35.13  2.49482e-06
35.21  1.77963e-06
35.29  1.34895e-06
35.37  1.06957e-06
35.45  8.8379e-07
35.53  8.47939e-07
35.61  1.3347e-06
35.69  5.62095e-07
35.77  4.82764e-07
35.85  4.27862e-07
35.93  3.86135e-07
36.01  3.53071e-07
36.09  3.31795e-07
36.17  3.33094e-07
36.25  2.92687e-06
36.33  3.41791e-07
36.41  1.17366e-06
36.49  8.10965e-06
36.57  3.08494e-07
36.65  2.35134e-07
36.73  2.01844e-07
36.81  1.88504e-07
36.89  1.81429e-07
36.97  1.79115e-07
37.05  1.72719e-07
37.13  1.67354e-07
37.21  1.62833e-07
37.29  1.59069e-07
37.37  1.56009e-07
37.45  1.5363e-07
37.53  1.51944e-07
37.61  1.51009e-07
37.69  1.50964e-07
37.77  1.52164e-07
37.85  1.55576e-07
37.93  1.72044e-07
38.01  2.12072e-07
38.09  4.72192e-06
38.17  3.03732e-07
38.25  1.97513e-07
38.33  1.84989e-07
38.41  1.94942e-07
38.49  2.22823e-07
38.57  3.07799e-07
38.65  5.21358e-07
38.73  2.07137e-05
38.81  1.32681e-06
38.89  1.91381e-05
38.97  2.35485e-06
39.05  5.94033e-07
39.13  3.90317e-07
39.21  3.76091e-07
39.29  4.15823e-07
39.37  5.96219e-07
39.45  1.05528e-06
39.53  4.75736e-05
39.61  1.95926e-06
39.69  9.93559e-07
39.77  9.64026e-07
39.85  1.20448e-06
39.93  1.66235e-06
40.01  2.54592e-06
40.09  4.58868e-06
40.17  1.47369e-05
40.25  5.64834e-05
40.33  0.0035251
40.41  3.80507e-05
40.49  1.54902e-05
40.57  5.8505e-06
40.65  2.50967e-06
40.73  1.63811e-06
40.81  1.19704e-06
40.89  9.48013e-07
40.97  7.99212e-07
41.05  7.14032e-07
41.13  6.9241e-07
41.21  8.08044e-07
41.29  8.27265e-06
41.37  8.39233e-07
41.45  8.37771e-07
41.53  9.81091e-07
41.61  1.27339e-06
41.69  1.84897e-06
41.77  3.10841e-06
41.85  1.81846e-05
41.93  2.39539e-05
42.01  0.00153434
42.09  6.20609e-05
42.17  1.28015e-05
42.25  4.03033e-06
42.33  2.16745e-06
42.41  1.39362e-06
42.49  9.90092e-07
42.57  7.54596e-07
42.65  6.13529e-07
42.73  6.52238e-07
42.81  9.42261e-07
42.89  3.77947e-07
42.97  3.26498e-07
43.05  2.93321e-07
43.13  2.71188e-07
43.21  2.56803e-07
43.29  2.51767e-07
43.37  2.87893e-07
43.45  4.06113e-07
43.53  1.49805e-05
43.61  6.23314e-07
43.69  2.88964e-07
43.77  2.21307e-07
43.85  2.06849e-07
43.93  2.03486e-07
44.01  2.09001e-07
44.09  1.06839e-06
44.17  2.14849e-07
44.25  2.08068e-07
44.33  2.13695e-07
44.41  2.19303e-07
44.49  2.26558e-07
44.57  2.35378e-07
44.65  2.45954e-07
44.73  2.58056e-07
44.81  2.7385e-07
44.89  3.10343e-07
44.97  1.82207e-06
45.05  3.4198e-07
45.13  3.5657e-07
45.21  3.86605e-07
45.29  4.35183e-07
45.37  5.58301e-07
45.45  1.07367e-06
45.53  2.12359e-05
45.61  8.7245e-07
45.69  2.38989e-06
45.77  7.95677e-07
45.85  8.57452e-07
45.93  9.75271e-07
46.01  1.13937e-06
46.09  1.36939e-06
46.17  1.90191e-06
46.25  2.84379e-06
46.33  2.63183e-06
46.41  3.4862e-06
46.49  4.91569e-06
46.57  7.53234e-06
46.65  1.3314e-05
46.73  3.60118e-05
46.81  0.000154128
46.89  0.00307916
46.97  0.000494098
47.05  6.0885e-05
47.13  2.09688e-05
47.21  9.65886e-06
47.29  6.101e-06
47.37  4.3151e-06
47.45  3.32021e-06
47.53  2.85159e-06
47.61  4.20103e-06
47.69  2.25544e-06
47.77  2.73999e-06
47.85  2.31937e-06
47.93  2.63847e-06
48.01  3.27681e-06
48.09  4.52822e-06
48.17  7.2342e-06
48.25  2.07975e-05
48.33  4.9995e-05
48.41  0.00194783
48.49  0.000595684
48.57  3.84883e-05
48.65  1.31406e-05
48.73  6.11366e-06
48.81  3.80147e-06
48.89  2.6252e-06
48.97  1.9471e-06
49.05  1.53799e-06
49.13  3.49029e-06
49.21  1.0332e-06
49.29  8.55633e-07
49.37  7.33822e-07
49.45  6.48248e-07
49.53  6.15464e-07
49.61  1.25249e-06
49.69  6.17947e-07
49.77  7.26283e-06
49.85  4.90859e-07
49.93  3.99093e-07
50.01  3.70249e-07
50.09  4.13189e-07
50.17  7.11631e-07
50.25  1.43371e-05
50.33  1.3233e-06
50.41  3.78059e-07
50.49  2.75576e-07
50.57  2.43683e-07
50.65  2.27496e-07
50.73  2.17152e-07
50.81  2.10746e-07
50.89  2.09323e-07
50.97  2.2416e-07
51.05  3.93022e-07
51.13  1.64357e-06
51.21  2.37612e-07
51.29  2.20056e-07
51.37  2.32548e-07
51.45  3.0134e-07
51.53  9.79357e-07
51.61  2.91051e-06
51.69  2.06252e-06
51.77  2.73711e-05
51.85  7.22242e-07
51.93  3.79925e-07
52.01  2.64918e-07
52.09  2.52937e-07
52.17  1.43652e-06
52.25  2.67126e-07
52.33  2.57302e-07
52.41  2.77539e-07
52.49  3.20694e-07
52.57  4.0699e-07
52.65  6.9176e-07
52.73  1.68051e-06
52.81  5.80381e-05
52.89  3.13884e-05
52.97  7.1767e-06
53.05  1.51251e-06
53.13  6.38278e-07
53.21  5.33782e-07
53.29  5.43472e-07
53.37  6.28431e-07
53.45  3.84035e-06
53.53  8.7915e-07
53.61  3.44824e-06
53.69  1.21704e-06
53.77  1.46433e-06
53.85  1.99672e-06
53.93  2.97221e-06
54.01  4.99616e-06
54.09  1.2974e-05
54.17  3.63045e-05
54.25  0.00125203
54.33  0.000156991
54.41  2.43476e-05
54.49  8.05592e-06
54.57  4.12137e-06
54.65  2.5737e-06
54.73  1.78067e-06
54.81  1.32271e-06
54.89  1.03622e-06
54.97  8.45743e-07
55.05  7.17242e-07
55.13  6.39007e-07
55.21  6.33447e-07
55.29  2.5287e-06
55.37  7.81869e-06
55.45  1.36945e-06
55.53  8.41038e-07
55.61  4.52165e-07
55.69  4.32847e-07
55.77  5.18673e-07
55.85  8.37769e-07
55.93  1.41689e-05
56.01  3.46071e-06
56.09  7.08947e-07
56.17  4.5759e-07
56.25  4.00358e-07
56.33  3.87342e-07
56.41  3.90203e-07
56.49  4.03966e-07
56.57  4.37854e-07
56.65  5.3425e-07
56.73  5.44561e-06
56.81  5.80705e-07
56.89  5.63017e-07
56.97  6.0434e-07
57.05  7.10024e-07
57.13  3.90087e-06
57.21  1.39071e-06
57.29  2.84304e-06
57.37  1.85237e-06
57.45  1.30305e-06
57.53  1.50207e-06
57.61  1.86584e-06
57.69  3.17464e-06
57.77  9.53786e-06
57.85  3.99281e-06
57.93  5.36434e-06
58.01  8.11283e-06
58.09  1.4022e-05
58.17  3.63821e-05
58.25  0.000119167
58.33  0.00420931
58.41  0.00042975
58.49  7.91957e-05
58.57  2.15331e-05
58.65  1.07023e-05
58.73  6.6665e-06
58.81  4.63579e-06
58.89  3.49254e-06
58.97  2.86566e-06
59.05  2.96592e-06
59.13  1.17704e-05
59.21  2.25051e-06
59.29  2.28462e-06
59.37  2.82855e-06
59.45  4.95151e-06
59.53  1.44839e-05
59.61  0.000235763
59.69  0.00080847
59.77  1.79038e-05
59.85  6.38375e-06
59.93  2.68124e-06
60.01  1.70361e-06
60.09  1.23295e-06
60.17  1.02654e-06
60.25  3.7385e-06
60.33  7.14658e-07
60.41  5.80837e-07
60.49  5.22061e-07
60.57  5.47929e-07
60.65  1.05027e-06
60.73  1.08033e-05
60.81  1.06454e-06
60.89  3.91137e-07
60.97  3.1855e-07
61.05  2.9523e-07
61.13  3.07542e-07
61.21  4.47858e-07
61.29  7.76333e-06
61.37  3.59205e-07
61.45  2.57097e-07
61.53  2.2549e-07
61.61  2.17847e-07
61.69  2.19316e-07
61.77  2.36936e-07
61.85  3.23009e-07
61.93  1.83478e-06
62.01  1.59136e-05
62.09  5.35765e-07
62.17  3.16316e-07
62.25  3.24464e-07
62.33  6.55698e-07
62.41  1.11805e-05
62.49  3.00507e-06
62.57  2.93382e-06
62.65  3.33768e-07
62.73  3.00997e-07
62.81  4.08737e-07
62.89  9.17949e-07
62.97  2.31359e-05
63.05  1.6213e-06
63.13  4.87058e-07
63.21  3.23939e-07
63.29  2.94677e-07
63.37  2.94762e-07
63.45  3.09153e-07
63.53  3.43934e-07
63.61  4.20742e-07
63.69  3.56416e-06
63.77  6.50818e-07
63.85  5.25547e-07
63.93  5.79726e-07
64.01  6.95817e-07
64.09  1.10395e-06
64.17  1.89718e-06
64.25  1.45575e-06
64.33  1.76263e-06
64.41  2.53575e-06
64.49  4.08137e-06
64.57  8.5032e-06
64.65  2.58287e-05
64.73  0.000331283
64.81  0.00158472
64.89  4.35939e-05
64.97  1.30751e-05
65.05  5.26268e-06
65.13  3.09756e-06
65.21  2.13302e-06
65.29  3.36086e-06
65.37  4.6446e-06
65.45  1.13321e-06
65.53  8.14762e-07
65.61  7.10541e-07
65.69  7.35057e-07
65.77  5.78227e-06
65.85  1.23886e-06
65.93  9.16432e-06
66.01  7.38293e-07
66.09  4.50599e-07
66.17  3.86919e-07
66.25  3.79662e-07
66.33  9.68758e-07
66.41  4.29479e-07
66.49  3.50718e-07
66.57  3.47178e-07
66.65  3.56183e-07
66.73  3.75592e-07
66.81  4.25063e-07
66.89  5.75847e-07
66.97  7.94554e-06
67.05  1.95624e-06
67.13  5.86642e-07
67.21  5.75584e-07
67.29  6.57352e-07
67.37  1.16309e-06
67.45  6.60968e-06
67.53  2.23306e-06
67.61  2.97799e-06
67.69  1.23161e-06
67.77  1.38578e-06
67.85  1.68157e-06
67.93  2.13323e-06
68.01  2.82864e-06
68.09  3.96434e-06
68.17  5.99693e-06
68.25  1.02645e-05
68.33  2.54676e-05
68.41  8.01774e-05
68.49  0.00303496
68.57  0.000823435
68.65  5.20621e-05
68.73  1.74877e-05
68.81  8.4274e-06
68.89  5.3526e-06
68.97  4.00427e-06
69.05  8.18617e-06
69.13  1.23378e-05
69.21  2.21815e-05
69.29  2.59873e-06
69.37  2.41049e-06
69.45  3.06658e-06
69.53  5.88565e-06
69.61  5.14048e-05
69.69  0.000360541
69.77  0.000595339
69.85  1.6063e-05
69.93  5.52321e-06
70.01  2.46165e-06
70.09  1.58186e-06
70.17  1.19598e-06
70.25  1.78839e-06
70.33  2.27612e-06
70.41  6.76603e-07
70.49  5.3829e-07
70.57  4.86076e-07
70.65  1.33258e-06
70.73  1.2498e-06
70.81  4.83079e-06
70.89  6.4446e-07
70.97  3.43929e-07
71.05  3.07487e-07
71.13  4.08375e-07
71.21  5.01977e-06
71.29  4.00185e-07
71.37  2.39373e-07
71.45  2.01993e-07
71.53  1.88889e-07
71.61  1.84287e-07
71.69  1.96945e-07
71.77  2.57247e-07
71.85  3.31151e-06
71.93  5.11012e-07
72.01  2.05535e-07
72.09  1.65504e-07
72.17  1.54904e-07
72.25  1.51431e-07
72.33  1.51312e-07
72.41  1.5389e-07
72.49  1.59636e-07
72.57  1.70991e-07
72.65  2e-07
72.73  2.7894e-07
72.81  4.01105e-06
72.89  4.44712e-07
72.97  3.4652e-07
73.05  4.57404e-07
73.13  9.05269e-07
73.21  3.87746e-06
73.29  4.50521e-05
73.37  2.83996e-05
73.45  4.70683e-06
73.53  8.33644e-07
73.61  4.90316e-07
73.69  4.29327e-07
73.77  6.51654e-07
73.85  5.03265e-06
73.93  2.45773e-06
74.01  4.99398e-06
74.09  7.52717e-07
74.17  8.84171e-07
74.25  1.34338e-06
74.33  2.86352e-06
74.41  8.76478e-06
74.49  8.93971e-05
74.57  0.000102798
74.65  7.60845e-06
74.73  2.7285e-06
74.81  1.32869e-06
74.89  8.8002e-07
74.97  7.85899e-07
75.05  3.36995e-06
75.13  5.12662e-07
75.21  4.40618e-07
75.29  5.0865e-07
75.37  1.79708e-06
75.45  7.1163e-06
75.53  1.85838e-05
75.61  2.04147e-06
75.69  5.76666e-07
75.77  3.99892e-07
75.85  8.0842e-07
75.93  4.14987e-06
76.01  3.87542e-07
76.09  3.09811e-07
76.17  2.98405e-07
76.25  3.06436e-07
76.33  3.23862e-07
76.41  3.551e-07
76.49  4.27451e-07
76.57  1.08341e-06
76.65  1.97389e-06
76.73  5.51454e-07
76.81  5.53563e-07
76.89  6.49577e-07
76.97  2.35704e-06
77.05  1.6128e-06
77.13  2.99593e-06
77.21  1.11813e-06
77.29  1.32044e-06
77.37  1.73549e-06
77.45  4.71396e-06
77.53  8.8207e-06
77.61  4.10397e-06
77.69  6.21354e-06
77.77  1.26464e-05
77.85  3.47711e-05
77.93  0.000772128
78.01  0.00106192
78.09  0.000192691
78.17  2.9038e-05
78.25  1.11919e-05
78.33  6.15562e-06
78.41  4.1878e-06
78.49  3.45235e-06
78.57  3.26236e-06
78.65  2.9029e-06
78.73  2.81738e-06
78.81  3.24517e-06
78.89  4.62862e-06
78.97  9.02748e-06
79.05  2.64245e-05
79.13  0.000506117
79.21  0.0008076
79.29  3.03276e-05
79.37  1.01528e-05
79.45  4.52224e-06
79.53  2.79418e-06
79.61  2.05828e-06
79.69  4.36685e-06
79.77  1.23467e-06
79.85  9.90265e-07
79.93  9.49664e-07
80.01  2.01538e-06
80.09  1.00923e-05
80.17  2.92992e-06
80.25  1.36693e-06
80.33  5.41887e-07
80.41  4.33611e-07
80.49  3.83617e-07
80.57  3.5279e-07
80.65  3.31182e-07
80.73  3.15748e-07
80.81  3.05195e-07
80.89  2.99148e-07
80.97  2.985e-07
81.05  3.09292e-07
81.13  4.09474e-07
81.21  9.5712e-07
81.29  3.54169e-07
81.37  3.78858e-07
81.45  4.87757e-07
81.53  2.36004e-06
81.61  4.87942e-06
81.69  2.14286e-05
81.77  1.32804e-06
81.85  7.40622e-07
81.93  7.67806e-07
82.01  2.31655e-06
82.09  3.08598e-06
82.17  2.28945e-06
82.25  1.60124e-06
82.33  2.40986e-06
82.41  5.01922e-06
82.49  1.82158e-05
82.57  0.000241638
82.65  0.000517373
82.73  1.83472e-05
82.81  6.40003e-06
82.89  2.82383e-06
82.97  1.99229e-06
83.05  1.82579e-06
83.13  5.50891e-06
83.21  2.82133e-06
83.29  5.3601e-06
83.37  2.81057e-06
83.45  4.16168e-06
83.53  8.3781e-06
83.61  2.84977e-05
83.69  0.000244689
83.77  0.000557736
83.85  3.12544e-05
83.93  9.90408e-06
84.01  4.46813e-06
84.09  2.73207e-06
84.17  1.99289e-06
84.25  3.03203e-06
84.33  5.59736e-06
84.41  1.07155e-06
84.49  7.82179e-07
84.57  6.49578e-07
84.65  6.09266e-07
84.73  7.787e-07
84.81  8.10774e-06
84.89  6.57045e-07
84.97  4.59219e-07
85.05  4.55766e-07
85.13  1.65216e-06
85.21  3.36247e-06
85.29  4.38399e-07
85.37  3.51542e-07
85.45  3.31195e-07
85.53  3.36017e-07
85.61  3.70439e-07
85.69  5.08397e-07
85.77  3.80136e-06
85.85  1.08118e-06
85.93  5.08116e-07
86.01  5.57042e-07
86.09  3.07783e-06
86.17  2.57508e-06
86.25  2.9451e-06
86.33  5.01611e-06
86.41  9.29786e-07
86.49  9.52738e-07
86.57  1.31187e-06
86.65  1.92885e-06
86.73  2.24656e-06
86.81  2.70319e-06
86.89  4.32016e-06
86.97  8.84604e-06
87.05  2.47673e-05
87.13  0.000280511
87.21  0.000363278
87.29  3.03387e-05
87.37  1.05041e-05
87.45  4.82541e-06
87.53  3.30799e-06
87.61  3.26034e-06
87.69  2.1e-05
87.77  6.26649e-06
87.85  5.01363e-06
87.93  2.73094e-06
88.01  3.73488e-06
88.09  7.68453e-06
88.17  3.67658e-05
88.25  0.000104041
88.33  0.000995203
88.41  3.79517e-05
88.49  1.06466e-05
88.57  4.40204e-06
88.65  2.6071e-06
88.73  2.0206e-06
88.81  2.67467e-06
88.89  2.76653e-06
88.97  9.04984e-07
89.05  6.88177e-07
89.13  5.70063e-07
89.21  5.49388e-07
89.29  4.41025e-07
89.37  3.90347e-07
89.45  3.63542e-07
89.53  3.65151e-07
89.61  7.12174e-07
89.69  1.39208e-06
89.77  1.36499e-06
89.85  3.3975e-07
89.93  2.78275e-07
90.01  2.63738e-07
90.09  2.76286e-07
90.17  3.60642e-07
90.25  1.45942e-06
90.33  4.21971e-06
90.41  4.27248e-07
90.49  3.42504e-07
90.57  4.46232e-07
90.65  3.4415e-06
90.73  6.88423e-06
90.81  1.76646e-06
90.89  9.02218e-06
90.97  6.54214e-07
91.05  4.50711e-07
91.13  5.69656e-07
91.21  5.4066e-06
91.29  1.01791e-06
91.37  5.76537e-07
91.45  7.40748e-07
91.53  1.42361e-06
91.61  6.40531e-06
91.69  4.54895e-05
91.77  2.96005e-05
91.85  6.06757e-06
91.93  1.29349e-06
92.01  8.45361e-07
92.09  8.32737e-07
92.17  1.46282e-06
92.25  9.41195e-06
92.33  1.92684e-06
92.41  2.7676e-06
92.49  1.97914e-06
92.57  3.20505e-06
92.65  6.9471e-06
92.73  5.45227e-05
92.81  7.17958e-05
92.89  0.000665614
92.97  3.37977e-05
93.05  8.7877e-06
93.13  3.72345e-06
93.21  2.3517e-06
93.29  2.94511e-06
93.37  8.6975e-06
93.45  1.36141e-06
93.53  9.11448e-07
93.61  8.81274e-07
93.69  2.61362e-06
93.77  4.88187e-06
93.85  2.84091e-06
93.93  9.975e-07
94.01  7.75453e-07
94.09  1.14893e-06
94.17  1.0516e-05
94.25  1.51941e-05
94.33  4.29987e-06
94.41  1.04805e-06
94.49  7.37118e-07
94.57  6.6991e-07
94.65  6.76165e-07
94.73  7.63095e-07
94.81  1.31139e-06
94.89  2.74332e-06
94.97  1.28007e-06
95.05  1.00356e-06
95.13  1.08697e-06
95.21  1.24927e-06
95.29  1.5616e-06
95.37  4.31547e-06
95.45  3.53693e-06
95.53  2.45763e-06
95.61  2.98414e-06
95.69  3.96303e-06
95.77  9.26099e-06
95.85  8.36547e-06
95.93  1.09819e-05
96.01  1.95e-05
96.09  4.70933e-05
96.17  0.000258934
96.25  0.00170852
96.33  0.000912817
96.41  7.94385e-05
96.49  2.75496e-05
96.57  1.38093e-05
96.65  8.77975e-06
96.73  6.36226e-06
96.81  5.43055e-06
96.89  6.63013e-06
96.97  1.53814e-05
97.05  5.44283e-06
97.13  7.68545e-06
97.21  1.75461e-05
97.29  0.000164041
97.37  0.000347165
97.45  4.65988e-05
97.53  1.04879e-05
97.61  4.81147e-06
97.69  2.99891e-06
97.77  2.26826e-06
97.85  2.83723e-06
97.93  1.15998e-05
98.01  1.91525e-06
98.09  1.13683e-06
98.17  1.04692e-06
98.25  3.12684e-06
98.33  8.80691e-06
98.41  3.88411e-06
98.49  1.19346e-06
98.57  5.8907e-07
98.65  5.24688e-07
98.73  1.00118e-06
98.81  1.20461e-06
98.89  7.96496e-07
98.97  3.88811e-07
99.05  3.45326e-07
99.13  3.28766e-07
99.21  3.27196e-07
99.29  3.52117e-07
99.37  4.6875e-07
99.45  2.09778e-06
99.53  3.61396e-06
99.61  5.39855e-07
99.69  4.73034e-07
99.77  1.94676e-06
99.85  2.28842e-06
99.93  2.37218e-06
100.01  1.0871e-05
100.09  8.98967e-07
100.17  6.605e-07
100.25  1.31679e-06
100.33  5.72366e-06
100.41  1.64867e-05
100.49  1.17354e-06
100.57  5.70058e-07
100.65  4.2226e-07
100.73  4.11594e-07
100.81  5.25154e-07
100.89  3.87499e-06
100.97  9.48831e-07
101.05  5.0989e-07
101.13  5.13972e-07
101.21  6.15182e-07
101.29  9.25876e-07
101.37  6.41828e-06
101.45  3.86783e-06
101.53  2.98963e-06
101.61  1.7369e-06
101.69  2.41205e-06
101.77  4.11657e-06
101.85  9.84667e-06
101.93  3.96737e-05
102.01  0.000472237
102.09  0.000108529
102.17  1.4138e-05
102.25  5.40009e-06
102.33  2.87974e-06
102.41  1.9424e-06
102.49  2.19044e-06
102.57  8.35559e-06
102.65  1.55796e-06
102.73  8.82166e-07
102.81  9.48457e-07
102.89  3.09886e-06
102.97  9.97497e-06
103.05  3.18716e-06
103.13  6.3892e-06
103.21  7.7948e-07
103.29  5.30035e-07
103.37  6.91709e-07
103.45  5.71893e-06
103.53  6.22251e-07
103.61  3.61042e-07
103.69  3.08132e-07
103.77  2.97725e-07
103.85  3.08803e-07
103.93  3.6555e-07
104.01  7.18942e-07
104.09  4.60572e-06
104.17  8.85213e-07
104.25  4.41007e-07
104.33  4.55192e-07
104.41  1.42044e-06
104.49  1.99485e-06
104.57  8.78893e-07
104.65  2.41738e-06
104.73  6.96904e-07
104.81  7.254e-07
104.89  8.59777e-07
104.97  1.08555e-06
105.05  1.45959e-06
105.13  2.14725e-06
105.21  3.77841e-06
105.29  8.86798e-06
105.37  8.1665e-05
105.45  7.63733e-05
105.53  0.000113166
105.61  0.000217406
105.69  1.68335e-05
105.77  6.34536e-06
105.85  3.4965e-06
105.93  2.95696e-06
106.01  5.91079e-06
106.09  1.64364e-05
106.17  5.51452e-06
106.25  4.10597e-06
106.33  3.28266e-06
106.41  5.19078e-06
106.49  1.24076e-05
106.57  5.49311e-05
106.65  0.000297097
106.73  0.000231069
106.81  5.18688e-05
106.89  9.89064e-06
106.97  4.41979e-06
107.05  2.62316e-06
107.13  2.22685e-06
107.21  1.69085e-06
107.29  4.3859e-06
107.37  1.02141e-06
107.45  7.47795e-07
107.53  7.57483e-07
107.61  5.64146e-07
107.69  8.2115e-07
107.77  1.21745e-06
107.85  1.06768e-06
107.93  5.73591e-07
108.01  2.44245e-06
108.09  2.23206e-06
108.17  4.63265e-06
108.25  9.1703e-07
108.33  3.75881e-07
108.41  3.03818e-07
108.49  2.86703e-07
108.57  2.98613e-07
108.65  3.6949e-07
108.73  1.12189e-06
108.81  2.9209e-06
108.89  5.95404e-06
108.97  6.40666e-07
109.05  3.63566e-07
109.13  2.99007e-07
109.21  3.08554e-07
109.29  6.08306e-07
109.37  4.19529e-07
109.45  4.52702e-07
109.53  3.51667e-07
109.61  5.59194e-07
109.69  6.19662e-07
109.77  2.19709e-06
109.85  7.32102e-07
109.93  8.22894e-07
110.01  1.30664e-06
110.09  3.09339e-06
110.17  2.88451e-05
110.25  4.23786e-05
110.33  6.86997e-05
110.41  9.56095e-06
110.49  2.47787e-06
110.57  1.41084e-06
110.65  1.24479e-06
110.73  2.28916e-06
110.81  3.11427e-06
110.89  4.07239e-06
110.97  1.9067e-06
111.05  1.94392e-06
111.13  2.70288e-06
111.21  4.42956e-06
111.29  9.62546e-06
111.37  4.11077e-05
111.45  0.00026383
111.53  0.000204542
111.61  0.000166938
111.69  1.81408e-05
111.77  7.02197e-06
111.85  3.79148e-06
111.93  2.74967e-06
112.01  5.63714e-06
112.09  8.66197e-06
112.17  1.74292e-06
112.25  1.16966e-06
112.33  1.61975e-06
112.41  1.49105e-06
112.49  6.43382e-06
112.57  7.61882e-06
112.65  5.21162e-06
112.73  1.03877e-06
112.81  7.7363e-07
112.89  8.86842e-07
112.97  2.55394e-06
113.05  1.13563e-05
113.13  1.48143e-06
113.21  7.43494e-07
113.29  6.13952e-07
113.37  5.92962e-07
113.45  6.17452e-07
113.53  7.19658e-07
113.61  1.96298e-06
113.69  1.50266e-06
113.77  5.10732e-06
113.85  1.11512e-06
113.93  1.08405e-06
114.01  1.7983e-06
114.09  1.34821e-06
114.17  3.54933e-06
114.25  4.45189e-06
114.33  1.91482e-06
114.41  2.10556e-06
114.49  2.97134e-06
114.57  5.46909e-06
114.65  7.26986e-06
114.73  6.735e-06
114.81  8.01119e-06
114.89  1.327e-05
114.97  2.85978e-05
115.05  0.00014404
115.13  0.000496045
115.21  0.000512128
115.29  0.00110488
115.37  9.35563e-05
115.45  2.93986e-05
115.53  1.37365e-05
115.61  8.3967e-06
115.69  6.05222e-06
115.77  5.41429e-06
115.85  9.34902e-06
115.93  3.44403e-06
116.01  2.80413e-06
116.09  2.72769e-06
116.17  3.22788e-06
116.25  4.67498e-06
116.33  7.03646e-06
116.41  2.12462e-05
116.49  0.000154086
116.57  0.00017959
116.65  1.72077e-05
116.73  6.2079e-06
116.81  3.25422e-06
116.89  2.21487e-06
116.97  2.03571e-06
117.05  5.29526e-06
117.13  2.29904e-06
117.21  1.11134e-06
117.29  1.03815e-06
117.37  1.58902e-06
117.45  6.38948e-06
117.53  1.02486e-05
117.61  2.46158e-06
117.69  5.79683e-06
117.77  9.68217e-07
117.85  5.96844e-07
117.93  4.8859e-07
118.01  4.38898e-07
118.09  4.09332e-07
118.17  3.90239e-07
118.25  3.78094e-07
118.33  3.71603e-07
118.41  3.71128e-07
118.49  3.80545e-07
118.57  4.18411e-07
118.65  8.56675e-07
118.73  9.16632e-07
118.81  1.9268e-06
118.89  5.87055e-07
118.97  6.03405e-07
119.05  2.03323e-06
119.13  1.22813e-06
119.21  2.51419e-06
119.29  5.49518e-06
119.37  3.62757e-06
119.45  1.00543e-06
119.53  9.35628e-07
119.61  2.08106e-06
119.69  2.9626e-06
119.77  3.1667e-06
119.85  1.2331e-05
119.93  2.59455e-06
119.99  2.36638e-06